{
  "resourceType": "Bundle",
  "type": "collection",
  "entry": [
    {
      "resource": {
        "resourceType": "Practitioner",
        "id": "prac-smith",
        "name": [
          {
            "family": "Smith",
            "given": [
              "Sarah"
            ],
            "prefix": [
              "Dr."
            ]
          }
        ],
        "qualification": [
          {
            "code": {
              "text": "General Practitioner"
            }
          }
        ]
      }
    },
    {
      "resource": {
        "resourceType": "Practitioner",
        "id": "prac-nguyen",
        "name": [
          {
            "family": "Nguyen",
            "given": [
              "Michael"
            ],
            "prefix": [
              "Dr."
            ]
          }
        ],
        "qualification": [
          {
            "code": {
              "text": "Endocrinology"
            }
          }
        ]
      }
    },
    {
      "resource": {
        "resourceType": "Practitioner",
        "id": "prac-jones",
        "name": [
          {
            "family": "Jones",
            "given": [
              "Emily"
            ],
            "prefix": [
              "Nurse"
            ]
          }
        ],
        "qualification": [
          {
            "code": {
              "text": "Registered Nurse"
            }
          }
        ]
      }
    },
    {
      "resource": {
        "resourceType": "Encounter",
        "id": "enc-1",
        "status": "finished",
        "class": {
          "system": "http://terminology.hl7.org/CodeSystem/v3-ActCode",
          "code": "AMB"
        },
        "type": [
          {
            "coding": [
              {
                "system": "http://snomed.info/sct",
                "code": "308335008",
                "display": "Patient encounter procedure"
              }
            ],
            "text": "Check-up"
          }
        ],
        "subject": {
          "reference": "Patient/3e9e2807-7f65-444c-b7c7-88b1b308631f"
        },
        "participant": [
          {
            "individual": {
              "reference": "Practitioner/prac-jones"
            }
          }
        ],
        "period": {
          "start": "2025-08-05T03:33:31.094Z",
          "end": "2025-08-05T04:03:31.094Z"
        }
      }
    },
    {
      "resource": {
        "resourceType": "Encounter",
        "id": "enc-2",
        "status": "finished",
        "class": {
          "system": "http://terminology.hl7.org/CodeSystem/v3-ActCode",
          "code": "AMB"
        },
        "type": [
          {
            "coding": [
              {
                "system": "http://snomed.info/sct",
                "code": "11429006",
                "display": "Office visit"
              }
            ],
            "text": "Office Visit"
          }
        ],
        "subject": {
          "reference": "Patient/3e9e2807-7f65-444c-b7c7-88b1b308631f"
        },
        "participant": [
          {
            "individual": {
              "reference": "Practitioner/prac-jones"
            }
          }
        ],
        "period": {
          "start": "2025-08-26T01:09:16.601Z",
          "end": "2025-08-26T01:39:16.601Z"
        }
      }
    },
    {
      "resource": {
        "resourceType": "Encounter",
        "id": "enc-3",
        "status": "finished",
        "class": {
          "system": "http://terminology.hl7.org/CodeSystem/v3-ActCode",
          "code": "AMB"
        },
        "type": [
          {
            "coding": [
              {
                "system": "http://snomed.info/sct",
                "code": "11429006",
                "display": "Office visit"
              }
            ],
            "text": "Office Visit"
          }
        ],
        "subject": {
          "reference": "Patient/3e9e2807-7f65-444c-b7c7-88b1b308631f"
        },
        "participant": [
          {
            "individual": {
              "reference": "Practitioner/prac-smith"
            }
          }
        ],
        "period": {
          "start": "2025-08-30T02:35:33.547Z",
          "end": "2025-08-30T03:05:33.547Z"
        }
      }
    },
    {
      "resource": {
        "resourceType": "Encounter",
        "id": "enc-4",
        "status": "finished",
        "class": {
          "system": "http://terminology.hl7.org/CodeSystem/v3-ActCode",
          "code": "AMB"
        },
        "type": [
          {
            "coding": [
              {
                "system": "http://snomed.info/sct",
                "code": "11429006",
                "display": "Office visit"
              }
            ],
            "text": "Office Visit"
          }
        ],
        "subject": {
          "reference": "Patient/3e9e2807-7f65-444c-b7c7-88b1b308631f"
        },
        "participant": [
          {
            "individual": {
              "reference": "Practitioner/prac-smith"
            }
          }
        ],
        "period": {
          "start": "2025-09-03T08:51:43.422Z",
          "end": "2025-09-03T09:21:43.422Z"
        }
      }
    },
    {
      "resource": {
        "resourceType": "Encounter",
        "id": "enc-5",
        "status": "finished",
        "class": {
          "system": "http://terminology.hl7.org/CodeSystem/v3-ActCode",
          "code": "AMB"
        },
        "type": [
          {
            "coding": [
              {
                "system": "http://snomed.info/sct",
                "code": "11429006",
                "display": "Office visit"
              }
            ],
            "text": "Office Visit"
          }
        ],
        "subject": {
          "reference": "Patient/3e9e2807-7f65-444c-b7c7-88b1b308631f"
        },
        "participant": [
          {
            "individual": {
              "reference": "Practitioner/prac-smith"
            }
          }
        ],
        "period": {
          "start": "2025-09-10T23:55:56.631Z",
          "end": "2025-09-11T00:25:56.631Z"
        }
      }
    },
    {
      "resource": {
        "resourceType": "Encounter",
        "id": "enc-6",
        "status": "finished",
        "class": {
          "system": "http://terminology.hl7.org/CodeSystem/v3-ActCode",
          "code": "AMB"
        },
        "type": [
          {
            "coding": [
              {
                "system": "http://snomed.info/sct",
                "code": "11429006",
                "display": "Office visit"
              }
            ],
            "text": "Office Visit"
          }
        ],
        "subject": {
          "reference": "Patient/3e9e2807-7f65-444c-b7c7-88b1b308631f"
        },
        "participant": [
          {
            "individual": {
              "reference": "Practitioner/prac-nguyen"
            }
          }
        ],
        "period": {
          "start": "2025-09-16T13:48:18.840Z",
          "end": "2025-09-16T14:18:18.840Z"
        }
      }
    },
    {
      "resource": {
        "resourceType": "Encounter",
        "id": "enc-7",
        "status": "finished",
        "class": {
          "system": "http://terminology.hl7.org/CodeSystem/v3-ActCode",
          "code": "AMB"
        },
        "type": [
          {
            "coding": [
              {
                "system": "http://snomed.info/sct",
                "code": "439708006",
                "display": "Home visit"
              }
            ],
            "text": "Home Health Visit"
          }
        ],
        "subject": {
          "reference": "Patient/3e9e2807-7f65-444c-b7c7-88b1b308631f"
        },
        "participant": [
          {
            "individual": {
              "reference": "Practitioner/prac-nguyen"
            }
          }
        ],
        "period": {
          "start": "2025-10-05T07:49:51.370Z",
          "end": "2025-10-05T08:19:51.370Z"
        }
      }
    },
    {
      "resource": {
        "resourceType": "Encounter",
        "id": "enc-8",
        "status": "finished",
        "class": {
          "system": "http://terminology.hl7.org/CodeSystem/v3-ActCode",
          "code": "AMB"
        },
        "type": [
          {
            "coding": [
              {
                "system": "http://snomed.info/sct",
                "code": "308335008",
                "display": "Patient encounter procedure"
              }
            ],
            "text": "Check-up"
          }
        ],
        "subject": {
          "reference": "Patient/3e9e2807-7f65-444c-b7c7-88b1b308631f"
        },
        "participant": [
          {
            "individual": {
              "reference": "Practitioner/prac-smith"
            }
          }
        ],
        "period": {
          "start": "2025-10-14T09:33:21.481Z",
          "end": "2025-10-14T10:03:21.481Z"
        }
      }
    },
    {
      "resource": {
        "resourceType": "Condition",
        "id": "cond-hypertension",
        "clinicalStatus": {
          "coding": [
            {
              "system": "http://terminology.hl7.org/CodeSystem/condition-clinical",
              "code": "active"
            }
          ]
        },
        "code": {
          "coding": [
            {
              "system": "http://snomed.info/sct",
              "code": "38341003",
              "display": "Hypertensive disorder"
            }
          ],
          "text": "Essential Hypertension"
        },
        "subject": {
          "reference": "Patient/3e9e2807-7f65-444c-b7c7-88b1b308631f"
        },
        "onsetDateTime": "2022-10-30T12:30:07.395Z",
        "recordedDate": "2022-10-30T12:30:07.395Z"
      }
    },
    {
      "resource": {
        "resourceType": "Condition",
        "id": "cond-diabetes",
        "clinicalStatus": {
          "coding": [
            {
              "system": "http://terminology.hl7.org/CodeSystem/condition-clinical",
              "code": "active"
            }
          ]
        },
        "code": {
          "coding": [
            {
              "system": "http://snomed.info/sct",
              "code": "44054006",
              "display": "Type 2 diabetes mellitus"
            }
          ],
          "text": "Type 2 Diabetes Mellitus"
        },
        "subject": {
          "reference": "Patient/3e9e2807-7f65-444c-b7c7-88b1b308631f"
        },
        "onsetDateTime": "2020-10-30T12:30:07.395Z",
        "recordedDate": "2020-10-30T12:30:07.395Z"
      }
    },
    {
      "resource": {
        "resourceType": "Condition",
        "id": "cond-allergy-seasonal",
        "clinicalStatus": {
          "coding": [
            {
              "system": "http://terminology.hl7.org/CodeSystem/condition-clinical",
              "code": "active"
            }
          ]
        },
        "code": {
          "coding": [
            {
              "system": "http://snomed.info/sct",
              "code": "21719001",
              "display": "Allergic rhinitis"
            }
          ],
          "text": "Seasonal Allergies"
        },
        "subject": {
          "reference": "Patient/3e9e2807-7f65-444c-b7c7-88b1b308631f"
        },
        "onsetDateTime": "2015-11-01T12:30:07.395Z",
        "recordedDate": "2015-11-01T12:30:07.395Z"
      }
    },
    {
      "resource": {
        "resourceType": "Condition",
        "id": "cond-bronchitis-resolved",
        "clinicalStatus": {
          "coding": [
            {
              "system": "http://terminology.hl7.org/CodeSystem/condition-clinical",
              "code": "resolved"
            }
          ]
        },
        "code": {
          "coding": [
            {
              "system": "http://snomed.info/sct",
              "code": "10509002",
              "display": "Acute bronchitis"
            }
          ],
          "text": "Acute Bronchitis (Resolved)"
        },
        "subject": {
          "reference": "Patient/3e9e2807-7f65-444c-b7c7-88b1b308631f"
        },
        "onsetDateTime": "2025-07-01T12:30:07.395Z",
        "abatementDateTime": "2025-07-16T12:30:07.395Z",
        "recordedDate": "2025-07-01T12:30:07.395Z"
      }
    },
    {
      "resource": {
        "resourceType": "MedicationStatement",
        "id": "med-metformin",
        "status": "active",
        "medicationCodeableConcept": {
          "coding": [
            {
              "system": "http://www.nlm.nih.gov/research/umls/rxnorm",
              "code": "860975",
              "display": "Metformin 500 MG Oral Tablet"
            }
          ],
          "text": "Metformin 500mg"
        },
        "subject": {
          "reference": "Patient/3e9e2807-7f65-444c-b7c7-88b1b308631f"
        },
        "effectiveDateTime": "2020-10-30T12:30:07.395Z",
        "dosage": [
          {
            "text": "500mg twice daily with meals",
            "timing": {
              "repeat": {
                "frequency": 2,
                "period": 1,
                "periodUnit": "d"
              }
            },
            "route": {
              "coding": [
                {
                  "system": "http://snomed.info/sct",
                  "code": "26643006",
                  "display": "Oral route"
                }
              ]
            },
            "doseAndRate": [
              {
                "doseQuantity": {
                  "value": 500,
                  "unit": "mg",
                  "system": "http://unitsofmeasure.org",
                  "code": "mg"
                }
              }
            ]
          }
        ]
      }
    },
    {
      "resource": {
        "resourceType": "MedicationStatement",
        "id": "med-amlodipine",
        "status": "active",
        "medicationCodeableConcept": {
          "coding": [
            {
              "system": "http://www.nlm.nih.gov/research/umls/rxnorm",
              "code": "197361",
              "display": "Amlodipine 5 MG Oral Tablet"
            }
          ],
          "text": "Amlodipine 5mg"
        },
        "subject": {
          "reference": "Patient/3e9e2807-7f65-444c-b7c7-88b1b308631f"
        },
        "effectiveDateTime": "2022-10-30T12:30:07.395Z",
        "dosage": [
          {
            "text": "5mg once daily",
            "timing": {
              "repeat": {
                "frequency": 1,
                "period": 1,
                "periodUnit": "d"
              }
            },
            "route": {
              "coding": [
                {
                  "system": "http://snomed.info/sct",
                  "code": "26643006",
                  "display": "Oral route"
                }
              ]
            },
            "doseAndRate": [
              {
                "doseQuantity": {
                  "value": 5,
                  "unit": "mg",
                  "system": "http://unitsofmeasure.org",
                  "code": "mg"
                }
              }
            ]
          }
        ]
      }
    },
    {
      "resource": {
        "resourceType": "MedicationStatement",
        "id": "med-lisinopril",
        "status": "active",
        "medicationCodeableConcept": {
          "coding": [
            {
              "system": "http://www.nlm.nih.gov/research/umls/rxnorm",
              "code": "314076",
              "display": "Lisinopril 10 MG Oral Tablet"
            }
          ],
          "text": "Lisinopril 10mg"
        },
        "subject": {
          "reference": "Patient/3e9e2807-7f65-444c-b7c7-88b1b308631f"
        },
        "effectiveDateTime": "2022-10-30T12:30:07.395Z",
        "dosage": [
          {
            "text": "10mg once daily",
            "timing": {
              "repeat": {
                "frequency": 1,
                "period": 1,
                "periodUnit": "d"
              }
            },
            "route": {
              "coding": [
                {
                  "system": "http://snomed.info/sct",
                  "code": "26643006",
                  "display": "Oral route"
                }
              ]
            },
            "doseAndRate": [
              {
                "doseQuantity": {
                  "value": 10,
                  "unit": "mg",
                  "system": "http://unitsofmeasure.org",
                  "code": "mg"
                }
              }
            ]
          }
        ]
      }
    },
    {
      "resource": {
        "resourceType": "MedicationStatement",
        "id": "med-aspirin",
        "status": "active",
        "medicationCodeableConcept": {
          "coding": [
            {
              "system": "http://www.nlm.nih.gov/research/umls/rxnorm",
              "code": "243670",
              "display": "Aspirin 81 MG Oral Tablet"
            }
          ],
          "text": "Aspirin 81mg (Low-Dose)"
        },
        "subject": {
          "reference": "Patient/3e9e2807-7f65-444c-b7c7-88b1b308631f"
        },
        "effectiveDateTime": "2023-10-30T12:30:07.395Z",
        "dosage": [
          {
            "text": "81mg once daily",
            "timing": {
              "repeat": {
                "frequency": 1,
                "period": 1,
                "periodUnit": "d"
              }
            },
            "route": {
              "coding": [
                {
                  "system": "http://snomed.info/sct",
                  "code": "26643006",
                  "display": "Oral route"
                }
              ]
            },
            "doseAndRate": [
              {
                "doseQuantity": {
                  "value": 81,
                  "unit": "mg",
                  "system": "http://unitsofmeasure.org",
                  "code": "mg"
                }
              }
            ]
          }
        ]
      }
    },
    {
      "resource": {
        "resourceType": "MedicationStatement",
        "id": "med-atorvastatin",
        "status": "active",
        "medicationCodeableConcept": {
          "coding": [
            {
              "system": "http://www.nlm.nih.gov/research/umls/rxnorm",
              "code": "617318",
              "display": "Atorvastatin 20 MG Oral Tablet"
            }
          ],
          "text": "Atorvastatin 20mg"
        },
        "subject": {
          "reference": "Patient/3e9e2807-7f65-444c-b7c7-88b1b308631f"
        },
        "effectiveDateTime": "2023-10-30T12:30:07.395Z",
        "dosage": [
          {
            "text": "20mg once daily at bedtime",
            "timing": {
              "repeat": {
                "frequency": 1,
                "period": 1,
                "periodUnit": "d",
                "when": [
                  "HS"
                ]
              }
            },
            "route": {
              "coding": [
                {
                  "system": "http://snomed.info/sct",
                  "code": "26643006",
                  "display": "Oral route"
                }
              ]
            },
            "doseAndRate": [
              {
                "doseQuantity": {
                  "value": 20,
                  "unit": "mg",
                  "system": "http://unitsofmeasure.org",
                  "code": "mg"
                }
              }
            ]
          }
        ]
      }
    },
    {
      "resource": {
        "resourceType": "MedicationStatement",
        "id": "med-amoxicillin-discontinued",
        "status": "completed",
        "medicationCodeableConcept": {
          "coding": [
            {
              "system": "http://www.nlm.nih.gov/research/umls/rxnorm",
              "code": "308192",
              "display": "Amoxicillin 500 MG Oral Capsule"
            }
          ],
          "text": "Amoxicillin 500mg (Discontinued)"
        },
        "subject": {
          "reference": "Patient/3e9e2807-7f65-444c-b7c7-88b1b308631f"
        },
        "effectivePeriod": {
          "start": "2025-07-01T12:30:07.395Z",
          "end": "2025-07-11T12:30:07.395Z"
        },
        "dosage": [
          {
            "text": "500mg three times daily for 10 days",
            "timing": {
              "repeat": {
                "frequency": 3,
                "period": 1,
                "periodUnit": "d"
              }
            },
            "route": {
              "coding": [
                {
                  "system": "http://snomed.info/sct",
                  "code": "26643006",
                  "display": "Oral route"
                }
              ]
            }
          }
        ]
      }
    },
    {
      "resource": {
        "resourceType": "Observation",
        "id": "obs-bp-1",
        "status": "final",
        "category": [
          {
            "coding": [
              {
                "system": "http://terminology.hl7.org/CodeSystem/observation-category",
                "code": "vital-signs",
                "display": "Vital Signs"
              }
            ]
          }
        ],
        "code": {
          "coding": [
            {
              "system": "http://loinc.org",
              "code": "85354-9",
              "display": "Blood pressure panel"
            }
          ],
          "text": "Blood Pressure"
        },
        "subject": {
          "reference": "Patient/3e9e2807-7f65-444c-b7c7-88b1b308631f"
        },
        "effectiveDateTime": "2025-07-31T12:30:07.395Z",
        "component": [
          {
            "code": {
              "coding": [
                {
                  "system": "http://loinc.org",
                  "code": "8480-6",
                  "display": "Systolic blood pressure"
                }
              ]
            },
            "valueQuantity": {
              "value": 119,
              "unit": "mmHg",
              "system": "http://unitsofmeasure.org",
              "code": "mm[Hg]"
            }
          },
          {
            "code": {
              "coding": [
                {
                  "system": "http://loinc.org",
                  "code": "8462-4",
                  "display": "Diastolic blood pressure"
                }
              ]
            },
            "valueQuantity": {
              "value": 70,
              "unit": "mmHg",
              "system": "http://unitsofmeasure.org",
              "code": "mm[Hg]"
            }
          }
        ]
      }
    },
    {
      "resource": {
        "resourceType": "Observation",
        "id": "obs-bp-2",
        "status": "final",
        "category": [
          {
            "coding": [
              {
                "system": "http://terminology.hl7.org/CodeSystem/observation-category",
                "code": "vital-signs",
                "display": "Vital Signs"
              }
            ]
          }
        ],
        "code": {
          "coding": [
            {
              "system": "http://loinc.org",
              "code": "85354-9",
              "display": "Blood pressure panel"
            }
          ],
          "text": "Blood Pressure"
        },
        "subject": {
          "reference": "Patient/3e9e2807-7f65-444c-b7c7-88b1b308631f"
        },
        "effectiveDateTime": "2025-08-07T12:30:07.395Z",
        "component": [
          {
            "code": {
              "coding": [
                {
                  "system": "http://loinc.org",
                  "code": "8480-6",
                  "display": "Systolic blood pressure"
                }
              ]
            },
            "valueQuantity": {
              "value": 127,
              "unit": "mmHg",
              "system": "http://unitsofmeasure.org",
              "code": "mm[Hg]"
            }
          },
          {
            "code": {
              "coding": [
                {
                  "system": "http://loinc.org",
                  "code": "8462-4",
                  "display": "Diastolic blood pressure"
                }
              ]
            },
            "valueQuantity": {
              "value": 81,
              "unit": "mmHg",
              "system": "http://unitsofmeasure.org",
              "code": "mm[Hg]"
            }
          }
        ]
      }
    },
    {
      "resource": {
        "resourceType": "Observation",
        "id": "obs-bp-3",
        "status": "final",
        "category": [
          {
            "coding": [
              {
                "system": "http://terminology.hl7.org/CodeSystem/observation-category",
                "code": "vital-signs",
                "display": "Vital Signs"
              }
            ]
          }
        ],
        "code": {
          "coding": [
            {
              "system": "http://loinc.org",
              "code": "85354-9",
              "display": "Blood pressure panel"
            }
          ],
          "text": "Blood Pressure"
        },
        "subject": {
          "reference": "Patient/3e9e2807-7f65-444c-b7c7-88b1b308631f"
        },
        "effectiveDateTime": "2025-08-14T12:30:07.395Z",
        "component": [
          {
            "code": {
              "coding": [
                {
                  "system": "http://loinc.org",
                  "code": "8480-6",
                  "display": "Systolic blood pressure"
                }
              ]
            },
            "valueQuantity": {
              "value": 129,
              "unit": "mmHg",
              "system": "http://unitsofmeasure.org",
              "code": "mm[Hg]"
            }
          },
          {
            "code": {
              "coding": [
                {
                  "system": "http://loinc.org",
                  "code": "8462-4",
                  "display": "Diastolic blood pressure"
                }
              ]
            },
            "valueQuantity": {
              "value": 73,
              "unit": "mmHg",
              "system": "http://unitsofmeasure.org",
              "code": "mm[Hg]"
            }
          }
        ]
      }
    },
    {
      "resource": {
        "resourceType": "Observation",
        "id": "obs-bp-4",
        "status": "final",
        "category": [
          {
            "coding": [
              {
                "system": "http://terminology.hl7.org/CodeSystem/observation-category",
                "code": "vital-signs",
                "display": "Vital Signs"
              }
            ]
          }
        ],
        "code": {
          "coding": [
            {
              "system": "http://loinc.org",
              "code": "85354-9",
              "display": "Blood pressure panel"
            }
          ],
          "text": "Blood Pressure"
        },
        "subject": {
          "reference": "Patient/3e9e2807-7f65-444c-b7c7-88b1b308631f"
        },
        "effectiveDateTime": "2025-08-21T12:30:07.395Z",
        "component": [
          {
            "code": {
              "coding": [
                {
                  "system": "http://loinc.org",
                  "code": "8480-6",
                  "display": "Systolic blood pressure"
                }
              ]
            },
            "valueQuantity": {
              "value": 111,
              "unit": "mmHg",
              "system": "http://unitsofmeasure.org",
              "code": "mm[Hg]"
            }
          },
          {
            "code": {
              "coding": [
                {
                  "system": "http://loinc.org",
                  "code": "8462-4",
                  "display": "Diastolic blood pressure"
                }
              ]
            },
            "valueQuantity": {
              "value": 71,
              "unit": "mmHg",
              "system": "http://unitsofmeasure.org",
              "code": "mm[Hg]"
            }
          }
        ]
      }
    },
    {
      "resource": {
        "resourceType": "Observation",
        "id": "obs-bp-5",
        "status": "final",
        "category": [
          {
            "coding": [
              {
                "system": "http://terminology.hl7.org/CodeSystem/observation-category",
                "code": "vital-signs",
                "display": "Vital Signs"
              }
            ]
          }
        ],
        "code": {
          "coding": [
            {
              "system": "http://loinc.org",
              "code": "85354-9",
              "display": "Blood pressure panel"
            }
          ],
          "text": "Blood Pressure"
        },
        "subject": {
          "reference": "Patient/3e9e2807-7f65-444c-b7c7-88b1b308631f"
        },
        "effectiveDateTime": "2025-08-28T12:30:07.395Z",
        "component": [
          {
            "code": {
              "coding": [
                {
                  "system": "http://loinc.org",
                  "code": "8480-6",
                  "display": "Systolic blood pressure"
                }
              ]
            },
            "valueQuantity": {
              "value": 114,
              "unit": "mmHg",
              "system": "http://unitsofmeasure.org",
              "code": "mm[Hg]"
            }
          },
          {
            "code": {
              "coding": [
                {
                  "system": "http://loinc.org",
                  "code": "8462-4",
                  "display": "Diastolic blood pressure"
                }
              ]
            },
            "valueQuantity": {
              "value": 70,
              "unit": "mmHg",
              "system": "http://unitsofmeasure.org",
              "code": "mm[Hg]"
            }
          }
        ]
      }
    },
    {
      "resource": {
        "resourceType": "Observation",
        "id": "obs-bp-6",
        "status": "final",
        "category": [
          {
            "coding": [
              {
                "system": "http://terminology.hl7.org/CodeSystem/observation-category",
                "code": "vital-signs",
                "display": "Vital Signs"
              }
            ]
          }
        ],
        "code": {
          "coding": [
            {
              "system": "http://loinc.org",
              "code": "85354-9",
              "display": "Blood pressure panel"
            }
          ],
          "text": "Blood Pressure"
        },
        "subject": {
          "reference": "Patient/3e9e2807-7f65-444c-b7c7-88b1b308631f"
        },
        "effectiveDateTime": "2025-09-04T12:30:07.395Z",
        "component": [
          {
            "code": {
              "coding": [
                {
                  "system": "http://loinc.org",
                  "code": "8480-6",
                  "display": "Systolic blood pressure"
                }
              ]
            },
            "valueQuantity": {
              "value": 118,
              "unit": "mmHg",
              "system": "http://unitsofmeasure.org",
              "code": "mm[Hg]"
            }
          },
          {
            "code": {
              "coding": [
                {
                  "system": "http://loinc.org",
                  "code": "8462-4",
                  "display": "Diastolic blood pressure"
                }
              ]
            },
            "valueQuantity": {
              "value": 74,
              "unit": "mmHg",
              "system": "http://unitsofmeasure.org",
              "code": "mm[Hg]"
            }
          }
        ]
      }
    },
    {
      "resource": {
        "resourceType": "Observation",
        "id": "obs-bp-7",
        "status": "final",
        "category": [
          {
            "coding": [
              {
                "system": "http://terminology.hl7.org/CodeSystem/observation-category",
                "code": "vital-signs",
                "display": "Vital Signs"
              }
            ]
          }
        ],
        "code": {
          "coding": [
            {
              "system": "http://loinc.org",
              "code": "85354-9",
              "display": "Blood pressure panel"
            }
          ],
          "text": "Blood Pressure"
        },
        "subject": {
          "reference": "Patient/3e9e2807-7f65-444c-b7c7-88b1b308631f"
        },
        "effectiveDateTime": "2025-09-11T12:30:07.395Z",
        "component": [
          {
            "code": {
              "coding": [
                {
                  "system": "http://loinc.org",
                  "code": "8480-6",
                  "display": "Systolic blood pressure"
                }
              ]
            },
            "valueQuantity": {
              "value": 119,
              "unit": "mmHg",
              "system": "http://unitsofmeasure.org",
              "code": "mm[Hg]"
            }
          },
          {
            "code": {
              "coding": [
                {
                  "system": "http://loinc.org",
                  "code": "8462-4",
                  "display": "Diastolic blood pressure"
                }
              ]
            },
            "valueQuantity": {
              "value": 73,
              "unit": "mmHg",
              "system": "http://unitsofmeasure.org",
              "code": "mm[Hg]"
            }
          }
        ]
      }
    },
    {
      "resource": {
        "resourceType": "Observation",
        "id": "obs-bp-8",
        "status": "final",
        "category": [
          {
            "coding": [
              {
                "system": "http://terminology.hl7.org/CodeSystem/observation-category",
                "code": "vital-signs",
                "display": "Vital Signs"
              }
            ]
          }
        ],
        "code": {
          "coding": [
            {
              "system": "http://loinc.org",
              "code": "85354-9",
              "display": "Blood pressure panel"
            }
          ],
          "text": "Blood Pressure"
        },
        "subject": {
          "reference": "Patient/3e9e2807-7f65-444c-b7c7-88b1b308631f"
        },
        "effectiveDateTime": "2025-09-18T12:30:07.395Z",
        "component": [
          {
            "code": {
              "coding": [
                {
                  "system": "http://loinc.org",
                  "code": "8480-6",
                  "display": "Systolic blood pressure"
                }
              ]
            },
            "valueQuantity": {
              "value": 110,
              "unit": "mmHg",
              "system": "http://unitsofmeasure.org",
              "code": "mm[Hg]"
            }
          },
          {
            "code": {
              "coding": [
                {
                  "system": "http://loinc.org",
                  "code": "8462-4",
                  "display": "Diastolic blood pressure"
                }
              ]
            },
            "valueQuantity": {
              "value": 69,
              "unit": "mmHg",
              "system": "http://unitsofmeasure.org",
              "code": "mm[Hg]"
            }
          }
        ]
      }
    },
    {
      "resource": {
        "resourceType": "Observation",
        "id": "obs-bp-9",
        "status": "final",
        "category": [
          {
            "coding": [
              {
                "system": "http://terminology.hl7.org/CodeSystem/observation-category",
                "code": "vital-signs",
                "display": "Vital Signs"
              }
            ]
          }
        ],
        "code": {
          "coding": [
            {
              "system": "http://loinc.org",
              "code": "85354-9",
              "display": "Blood pressure panel"
            }
          ],
          "text": "Blood Pressure"
        },
        "subject": {
          "reference": "Patient/3e9e2807-7f65-444c-b7c7-88b1b308631f"
        },
        "effectiveDateTime": "2025-09-25T12:30:07.395Z",
        "component": [
          {
            "code": {
              "coding": [
                {
                  "system": "http://loinc.org",
                  "code": "8480-6",
                  "display": "Systolic blood pressure"
                }
              ]
            },
            "valueQuantity": {
              "value": 113,
              "unit": "mmHg",
              "system": "http://unitsofmeasure.org",
              "code": "mm[Hg]"
            }
          },
          {
            "code": {
              "coding": [
                {
                  "system": "http://loinc.org",
                  "code": "8462-4",
                  "display": "Diastolic blood pressure"
                }
              ]
            },
            "valueQuantity": {
              "value": 69,
              "unit": "mmHg",
              "system": "http://unitsofmeasure.org",
              "code": "mm[Hg]"
            }
          }
        ]
      }
    },
    {
      "resource": {
        "resourceType": "Observation",
        "id": "obs-bp-10",
        "status": "final",
        "category": [
          {
            "coding": [
              {
                "system": "http://terminology.hl7.org/CodeSystem/observation-category",
                "code": "vital-signs",
                "display": "Vital Signs"
              }
            ]
          }
        ],
        "code": {
          "coding": [
            {
              "system": "http://loinc.org",
              "code": "85354-9",
              "display": "Blood pressure panel"
            }
          ],
          "text": "Blood Pressure"
        },
        "subject": {
          "reference": "Patient/3e9e2807-7f65-444c-b7c7-88b1b308631f"
        },
        "effectiveDateTime": "2025-10-02T12:30:07.395Z",
        "component": [
          {
            "code": {
              "coding": [
                {
                  "system": "http://loinc.org",
                  "code": "8480-6",
                  "display": "Systolic blood pressure"
                }
              ]
            },
            "valueQuantity": {
              "value": 122,
              "unit": "mmHg",
              "system": "http://unitsofmeasure.org",
              "code": "mm[Hg]"
            }
          },
          {
            "code": {
              "coding": [
                {
                  "system": "http://loinc.org",
                  "code": "8462-4",
                  "display": "Diastolic blood pressure"
                }
              ]
            },
            "valueQuantity": {
              "value": 75,
              "unit": "mmHg",
              "system": "http://unitsofmeasure.org",
              "code": "mm[Hg]"
            }
          }
        ]
      }
    },
    {
      "resource": {
        "resourceType": "Observation",
        "id": "obs-bp-11",
        "status": "final",
        "category": [
          {
            "coding": [
              {
                "system": "http://terminology.hl7.org/CodeSystem/observation-category",
                "code": "vital-signs",
                "display": "Vital Signs"
              }
            ]
          }
        ],
        "code": {
          "coding": [
            {
              "system": "http://loinc.org",
              "code": "85354-9",
              "display": "Blood pressure panel"
            }
          ],
          "text": "Blood Pressure"
        },
        "subject": {
          "reference": "Patient/3e9e2807-7f65-444c-b7c7-88b1b308631f"
        },
        "effectiveDateTime": "2025-10-09T12:30:07.395Z",
        "component": [
          {
            "code": {
              "coding": [
                {
                  "system": "http://loinc.org",
                  "code": "8480-6",
                  "display": "Systolic blood pressure"
                }
              ]
            },
            "valueQuantity": {
              "value": 121,
              "unit": "mmHg",
              "system": "http://unitsofmeasure.org",
              "code": "mm[Hg]"
            }
          },
          {
            "code": {
              "coding": [
                {
                  "system": "http://loinc.org",
                  "code": "8462-4",
                  "display": "Diastolic blood pressure"
                }
              ]
            },
            "valueQuantity": {
              "value": 77,
              "unit": "mmHg",
              "system": "http://unitsofmeasure.org",
              "code": "mm[Hg]"
            }
          }
        ]
      }
    },
    {
      "resource": {
        "resourceType": "Observation",
        "id": "obs-bp-12",
        "status": "final",
        "category": [
          {
            "coding": [
              {
                "system": "http://terminology.hl7.org/CodeSystem/observation-category",
                "code": "vital-signs",
                "display": "Vital Signs"
              }
            ]
          }
        ],
        "code": {
          "coding": [
            {
              "system": "http://loinc.org",
              "code": "85354-9",
              "display": "Blood pressure panel"
            }
          ],
          "text": "Blood Pressure"
        },
        "subject": {
          "reference": "Patient/3e9e2807-7f65-444c-b7c7-88b1b308631f"
        },
        "effectiveDateTime": "2025-10-16T12:30:07.395Z",
        "component": [
          {
            "code": {
              "coding": [
                {
                  "system": "http://loinc.org",
                  "code": "8480-6",
                  "display": "Systolic blood pressure"
                }
              ]
            },
            "valueQuantity": {
              "value": 125,
              "unit": "mmHg",
              "system": "http://unitsofmeasure.org",
              "code": "mm[Hg]"
            }
          },
          {
            "code": {
              "coding": [
                {
                  "system": "http://loinc.org",
                  "code": "8462-4",
                  "display": "Diastolic blood pressure"
                }
              ]
            },
            "valueQuantity": {
              "value": 70,
              "unit": "mmHg",
              "system": "http://unitsofmeasure.org",
              "code": "mm[Hg]"
            }
          }
        ]
      }
    },
    {
      "resource": {
        "resourceType": "Observation",
        "id": "obs-bp-13",
        "status": "final",
        "category": [
          {
            "coding": [
              {
                "system": "http://terminology.hl7.org/CodeSystem/observation-category",
                "code": "vital-signs",
                "display": "Vital Signs"
              }
            ]
          }
        ],
        "code": {
          "coding": [
            {
              "system": "http://loinc.org",
              "code": "85354-9",
              "display": "Blood pressure panel"
            }
          ],
          "text": "Blood Pressure"
        },
        "subject": {
          "reference": "Patient/3e9e2807-7f65-444c-b7c7-88b1b308631f"
        },
        "effectiveDateTime": "2025-10-23T12:30:07.395Z",
        "component": [
          {
            "code": {
              "coding": [
                {
                  "system": "http://loinc.org",
                  "code": "8480-6",
                  "display": "Systolic blood pressure"
                }
              ]
            },
            "valueQuantity": {
              "value": 119,
              "unit": "mmHg",
              "system": "http://unitsofmeasure.org",
              "code": "mm[Hg]"
            }
          },
          {
            "code": {
              "coding": [
                {
                  "system": "http://loinc.org",
                  "code": "8462-4",
                  "display": "Diastolic blood pressure"
                }
              ]
            },
            "valueQuantity": {
              "value": 81,
              "unit": "mmHg",
              "system": "http://unitsofmeasure.org",
              "code": "mm[Hg]"
            }
          }
        ]
      }
    },
    {
      "resource": {
        "resourceType": "Observation",
        "id": "obs-pulse-1",
        "status": "final",
        "category": [
          {
            "coding": [
              {
                "system": "http://terminology.hl7.org/CodeSystem/observation-category",
                "code": "vital-signs"
              }
            ]
          }
        ],
        "code": {
          "coding": [
            {
              "system": "http://loinc.org",
              "code": "8867-4",
              "display": "Heart rate"
            }
          ],
          "text": "Pulse"
        },
        "subject": {
          "reference": "Patient/3e9e2807-7f65-444c-b7c7-88b1b308631f"
        },
        "effectiveDateTime": "2025-07-31T12:30:07.395Z",
        "valueQuantity": {
          "value": 61,
          "unit": "/min",
          "system": "http://unitsofmeasure.org",
          "code": "/min"
        }
      }
    },
    {
      "resource": {
        "resourceType": "Observation",
        "id": "obs-pulse-2",
        "status": "final",
        "category": [
          {
            "coding": [
              {
                "system": "http://terminology.hl7.org/CodeSystem/observation-category",
                "code": "vital-signs"
              }
            ]
          }
        ],
        "code": {
          "coding": [
            {
              "system": "http://loinc.org",
              "code": "8867-4",
              "display": "Heart rate"
            }
          ],
          "text": "Pulse"
        },
        "subject": {
          "reference": "Patient/3e9e2807-7f65-444c-b7c7-88b1b308631f"
        },
        "effectiveDateTime": "2025-08-07T12:30:07.395Z",
        "valueQuantity": {
          "value": 71,
          "unit": "/min",
          "system": "http://unitsofmeasure.org",
          "code": "/min"
        }
      }
    },
    {
      "resource": {
        "resourceType": "Observation",
        "id": "obs-pulse-3",
        "status": "final",
        "category": [
          {
            "coding": [
              {
                "system": "http://terminology.hl7.org/CodeSystem/observation-category",
                "code": "vital-signs"
              }
            ]
          }
        ],
        "code": {
          "coding": [
            {
              "system": "http://loinc.org",
              "code": "8867-4",
              "display": "Heart rate"
            }
          ],
          "text": "Pulse"
        },
        "subject": {
          "reference": "Patient/3e9e2807-7f65-444c-b7c7-88b1b308631f"
        },
        "effectiveDateTime": "2025-08-14T12:30:07.395Z",
        "valueQuantity": {
          "value": 64,
          "unit": "/min",
          "system": "http://unitsofmeasure.org",
          "code": "/min"
        }
      }
    },
    {
      "resource": {
        "resourceType": "Observation",
        "id": "obs-pulse-4",
        "status": "final",
        "category": [
          {
            "coding": [
              {
                "system": "http://terminology.hl7.org/CodeSystem/observation-category",
                "code": "vital-signs"
              }
            ]
          }
        ],
        "code": {
          "coding": [
            {
              "system": "http://loinc.org",
              "code": "8867-4",
              "display": "Heart rate"
            }
          ],
          "text": "Pulse"
        },
        "subject": {
          "reference": "Patient/3e9e2807-7f65-444c-b7c7-88b1b308631f"
        },
        "effectiveDateTime": "2025-08-21T12:30:07.395Z",
        "valueQuantity": {
          "value": 76,
          "unit": "/min",
          "system": "http://unitsofmeasure.org",
          "code": "/min"
        }
      }
    },
    {
      "resource": {
        "resourceType": "Observation",
        "id": "obs-pulse-5",
        "status": "final",
        "category": [
          {
            "coding": [
              {
                "system": "http://terminology.hl7.org/CodeSystem/observation-category",
                "code": "vital-signs"
              }
            ]
          }
        ],
        "code": {
          "coding": [
            {
              "system": "http://loinc.org",
              "code": "8867-4",
              "display": "Heart rate"
            }
          ],
          "text": "Pulse"
        },
        "subject": {
          "reference": "Patient/3e9e2807-7f65-444c-b7c7-88b1b308631f"
        },
        "effectiveDateTime": "2025-08-28T12:30:07.395Z",
        "valueQuantity": {
          "value": 75,
          "unit": "/min",
          "system": "http://unitsofmeasure.org",
          "code": "/min"
        }
      }
    },
    {
      "resource": {
        "resourceType": "Observation",
        "id": "obs-pulse-6",
        "status": "final",
        "category": [
          {
            "coding": [
              {
                "system": "http://terminology.hl7.org/CodeSystem/observation-category",
                "code": "vital-signs"
              }
            ]
          }
        ],
        "code": {
          "coding": [
            {
              "system": "http://loinc.org",
              "code": "8867-4",
              "display": "Heart rate"
            }
          ],
          "text": "Pulse"
        },
        "subject": {
          "reference": "Patient/3e9e2807-7f65-444c-b7c7-88b1b308631f"
        },
        "effectiveDateTime": "2025-09-04T12:30:07.395Z",
        "valueQuantity": {
          "value": 60,
          "unit": "/min",
          "system": "http://unitsofmeasure.org",
          "code": "/min"
        }
      }
    },
    {
      "resource": {
        "resourceType": "Observation",
        "id": "obs-pulse-7",
        "status": "final",
        "category": [
          {
            "coding": [
              {
                "system": "http://terminology.hl7.org/CodeSystem/observation-category",
                "code": "vital-signs"
              }
            ]
          }
        ],
        "code": {
          "coding": [
            {
              "system": "http://loinc.org",
              "code": "8867-4",
              "display": "Heart rate"
            }
          ],
          "text": "Pulse"
        },
        "subject": {
          "reference": "Patient/3e9e2807-7f65-444c-b7c7-88b1b308631f"
        },
        "effectiveDateTime": "2025-09-11T12:30:07.395Z",
        "valueQuantity": {
          "value": 74,
          "unit": "/min",
          "system": "http://unitsofmeasure.org",
          "code": "/min"
        }
      }
    },
    {
      "resource": {
        "resourceType": "Observation",
        "id": "obs-pulse-8",
        "status": "final",
        "category": [
          {
            "coding": [
              {
                "system": "http://terminology.hl7.org/CodeSystem/observation-category",
                "code": "vital-signs"
              }
            ]
          }
        ],
        "code": {
          "coding": [
            {
              "system": "http://loinc.org",
              "code": "8867-4",
              "display": "Heart rate"
            }
          ],
          "text": "Pulse"
        },
        "subject": {
          "reference": "Patient/3e9e2807-7f65-444c-b7c7-88b1b308631f"
        },
        "effectiveDateTime": "2025-09-18T12:30:07.395Z",
        "valueQuantity": {
          "value": 68,
          "unit": "/min",
          "system": "http://unitsofmeasure.org",
          "code": "/min"
        }
      }
    },
    {
      "resource": {
        "resourceType": "Observation",
        "id": "obs-pulse-9",
        "status": "final",
        "category": [
          {
            "coding": [
              {
                "system": "http://terminology.hl7.org/CodeSystem/observation-category",
                "code": "vital-signs"
              }
            ]
          }
        ],
        "code": {
          "coding": [
            {
              "system": "http://loinc.org",
              "code": "8867-4",
              "display": "Heart rate"
            }
          ],
          "text": "Pulse"
        },
        "subject": {
          "reference": "Patient/3e9e2807-7f65-444c-b7c7-88b1b308631f"
        },
        "effectiveDateTime": "2025-09-25T12:30:07.395Z",
        "valueQuantity": {
          "value": 60,
          "unit": "/min",
          "system": "http://unitsofmeasure.org",
          "code": "/min"
        }
      }
    },
    {
      "resource": {
        "resourceType": "Observation",
        "id": "obs-pulse-10",
        "status": "final",
        "category": [
          {
            "coding": [
              {
                "system": "http://terminology.hl7.org/CodeSystem/observation-category",
                "code": "vital-signs"
              }
            ]
          }
        ],
        "code": {
          "coding": [
            {
              "system": "http://loinc.org",
              "code": "8867-4",
              "display": "Heart rate"
            }
          ],
          "text": "Pulse"
        },
        "subject": {
          "reference": "Patient/3e9e2807-7f65-444c-b7c7-88b1b308631f"
        },
        "effectiveDateTime": "2025-10-02T12:30:07.395Z",
        "valueQuantity": {
          "value": 66,
          "unit": "/min",
          "system": "http://unitsofmeasure.org",
          "code": "/min"
        }
      }
    },
    {
      "resource": {
        "resourceType": "Observation",
        "id": "obs-pulse-11",
        "status": "final",
        "category": [
          {
            "coding": [
              {
                "system": "http://terminology.hl7.org/CodeSystem/observation-category",
                "code": "vital-signs"
              }
            ]
          }
        ],
        "code": {
          "coding": [
            {
              "system": "http://loinc.org",
              "code": "8867-4",
              "display": "Heart rate"
            }
          ],
          "text": "Pulse"
        },
        "subject": {
          "reference": "Patient/3e9e2807-7f65-444c-b7c7-88b1b308631f"
        },
        "effectiveDateTime": "2025-10-09T12:30:07.395Z",
        "valueQuantity": {
          "value": 62,
          "unit": "/min",
          "system": "http://unitsofmeasure.org",
          "code": "/min"
        }
      }
    },
    {
      "resource": {
        "resourceType": "Observation",
        "id": "obs-pulse-12",
        "status": "final",
        "category": [
          {
            "coding": [
              {
                "system": "http://terminology.hl7.org/CodeSystem/observation-category",
                "code": "vital-signs"
              }
            ]
          }
        ],
        "code": {
          "coding": [
            {
              "system": "http://loinc.org",
              "code": "8867-4",
              "display": "Heart rate"
            }
          ],
          "text": "Pulse"
        },
        "subject": {
          "reference": "Patient/3e9e2807-7f65-444c-b7c7-88b1b308631f"
        },
        "effectiveDateTime": "2025-10-16T12:30:07.395Z",
        "valueQuantity": {
          "value": 66,
          "unit": "/min",
          "system": "http://unitsofmeasure.org",
          "code": "/min"
        }
      }
    },
    {
      "resource": {
        "resourceType": "Observation",
        "id": "obs-pulse-13",
        "status": "final",
        "category": [
          {
            "coding": [
              {
                "system": "http://terminology.hl7.org/CodeSystem/observation-category",
                "code": "vital-signs"
              }
            ]
          }
        ],
        "code": {
          "coding": [
            {
              "system": "http://loinc.org",
              "code": "8867-4",
              "display": "Heart rate"
            }
          ],
          "text": "Pulse"
        },
        "subject": {
          "reference": "Patient/3e9e2807-7f65-444c-b7c7-88b1b308631f"
        },
        "effectiveDateTime": "2025-10-23T12:30:07.395Z",
        "valueQuantity": {
          "value": 63,
          "unit": "/min",
          "system": "http://unitsofmeasure.org",
          "code": "/min"
        }
      }
    },
    {
      "resource": {
        "resourceType": "Observation",
        "id": "obs-spo2-1",
        "status": "final",
        "category": [
          {
            "coding": [
              {
                "system": "http://terminology.hl7.org/CodeSystem/observation-category",
                "code": "vital-signs"
              }
            ]
          }
        ],
        "code": {
          "coding": [
            {
              "system": "http://loinc.org",
              "code": "59408-5",
              "display": "Oxygen saturation"
            }
          ],
          "text": "SpO"
        },
        "subject": {
          "reference": "Patient/3e9e2807-7f65-444c-b7c7-88b1b308631f"
        },
        "effectiveDateTime": "2025-07-31T12:30:07.395Z",
        "valueQuantity": {
          "value": 98,
          "unit": "%",
          "system": "http://unitsofmeasure.org",
          "code": "%"
        }
      }
    },
    {
      "resource": {
        "resourceType": "Observation",
        "id": "obs-spo2-2",
        "status": "final",
        "category": [
          {
            "coding": [
              {
                "system": "http://terminology.hl7.org/CodeSystem/observation-category",
                "code": "vital-signs"
              }
            ]
          }
        ],
        "code": {
          "coding": [
            {
              "system": "http://loinc.org",
              "code": "59408-5",
              "display": "Oxygen saturation"
            }
          ],
          "text": "SpO"
        },
        "subject": {
          "reference": "Patient/3e9e2807-7f65-444c-b7c7-88b1b308631f"
        },
        "effectiveDateTime": "2025-08-07T12:30:07.395Z",
        "valueQuantity": {
          "value": 96,
          "unit": "%",
          "system": "http://unitsofmeasure.org",
          "code": "%"
        }
      }
    },
    {
      "resource": {
        "resourceType": "Observation",
        "id": "obs-spo2-3",
        "status": "final",
        "category": [
          {
            "coding": [
              {
                "system": "http://terminology.hl7.org/CodeSystem/observation-category",
                "code": "vital-signs"
              }
            ]
          }
        ],
        "code": {
          "coding": [
            {
              "system": "http://loinc.org",
              "code": "59408-5",
              "display": "Oxygen saturation"
            }
          ],
          "text": "SpO"
        },
        "subject": {
          "reference": "Patient/3e9e2807-7f65-444c-b7c7-88b1b308631f"
        },
        "effectiveDateTime": "2025-08-14T12:30:07.395Z",
        "valueQuantity": {
          "value": 98,
          "unit": "%",
          "system": "http://unitsofmeasure.org",
          "code": "%"
        }
      }
    },
    {
      "resource": {
        "resourceType": "Observation",
        "id": "obs-spo2-4",
        "status": "final",
        "category": [
          {
            "coding": [
              {
                "system": "http://terminology.hl7.org/CodeSystem/observation-category",
                "code": "vital-signs"
              }
            ]
          }
        ],
        "code": {
          "coding": [
            {
              "system": "http://loinc.org",
              "code": "59408-5",
              "display": "Oxygen saturation"
            }
          ],
          "text": "SpO"
        },
        "subject": {
          "reference": "Patient/3e9e2807-7f65-444c-b7c7-88b1b308631f"
        },
        "effectiveDateTime": "2025-08-21T12:30:07.395Z",
        "valueQuantity": {
          "value": 97,
          "unit": "%",
          "system": "http://unitsofmeasure.org",
          "code": "%"
        }
      }
    },
    {
      "resource": {
        "resourceType": "Observation",
        "id": "obs-spo2-5",
        "status": "final",
        "category": [
          {
            "coding": [
              {
                "system": "http://terminology.hl7.org/CodeSystem/observation-category",
                "code": "vital-signs"
              }
            ]
          }
        ],
        "code": {
          "coding": [
            {
              "system": "http://loinc.org",
              "code": "59408-5",
              "display": "Oxygen saturation"
            }
          ],
          "text": "SpO"
        },
        "subject": {
          "reference": "Patient/3e9e2807-7f65-444c-b7c7-88b1b308631f"
        },
        "effectiveDateTime": "2025-08-28T12:30:07.395Z",
        "valueQuantity": {
          "value": 96,
          "unit": "%",
          "system": "http://unitsofmeasure.org",
          "code": "%"
        }
      }
    },
    {
      "resource": {
        "resourceType": "Observation",
        "id": "obs-spo2-6",
        "status": "final",
        "category": [
          {
            "coding": [
              {
                "system": "http://terminology.hl7.org/CodeSystem/observation-category",
                "code": "vital-signs"
              }
            ]
          }
        ],
        "code": {
          "coding": [
            {
              "system": "http://loinc.org",
              "code": "59408-5",
              "display": "Oxygen saturation"
            }
          ],
          "text": "SpO"
        },
        "subject": {
          "reference": "Patient/3e9e2807-7f65-444c-b7c7-88b1b308631f"
        },
        "effectiveDateTime": "2025-09-04T12:30:07.395Z",
        "valueQuantity": {
          "value": 97,
          "unit": "%",
          "system": "http://unitsofmeasure.org",
          "code": "%"
        }
      }
    },
    {
      "resource": {
        "resourceType": "Observation",
        "id": "obs-spo2-7",
        "status": "final",
        "category": [
          {
            "coding": [
              {
                "system": "http://terminology.hl7.org/CodeSystem/observation-category",
                "code": "vital-signs"
              }
            ]
          }
        ],
        "code": {
          "coding": [
            {
              "system": "http://loinc.org",
              "code": "59408-5",
              "display": "Oxygen saturation"
            }
          ],
          "text": "SpO"
        },
        "subject": {
          "reference": "Patient/3e9e2807-7f65-444c-b7c7-88b1b308631f"
        },
        "effectiveDateTime": "2025-09-11T12:30:07.395Z",
        "valueQuantity": {
          "value": 96,
          "unit": "%",
          "system": "http://unitsofmeasure.org",
          "code": "%"
        }
      }
    },
    {
      "resource": {
        "resourceType": "Observation",
        "id": "obs-spo2-8",
        "status": "final",
        "category": [
          {
            "coding": [
              {
                "system": "http://terminology.hl7.org/CodeSystem/observation-category",
                "code": "vital-signs"
              }
            ]
          }
        ],
        "code": {
          "coding": [
            {
              "system": "http://loinc.org",
              "code": "59408-5",
              "display": "Oxygen saturation"
            }
          ],
          "text": "SpO"
        },
        "subject": {
          "reference": "Patient/3e9e2807-7f65-444c-b7c7-88b1b308631f"
        },
        "effectiveDateTime": "2025-09-18T12:30:07.395Z",
        "valueQuantity": {
          "value": 97,
          "unit": "%",
          "system": "http://unitsofmeasure.org",
          "code": "%"
        }
      }
    },
    {
      "resource": {
        "resourceType": "Observation",
        "id": "obs-spo2-9",
        "status": "final",
        "category": [
          {
            "coding": [
              {
                "system": "http://terminology.hl7.org/CodeSystem/observation-category",
                "code": "vital-signs"
              }
            ]
          }
        ],
        "code": {
          "coding": [
            {
              "system": "http://loinc.org",
              "code": "59408-5",
              "display": "Oxygen saturation"
            }
          ],
          "text": "SpO"
        },
        "subject": {
          "reference": "Patient/3e9e2807-7f65-444c-b7c7-88b1b308631f"
        },
        "effectiveDateTime": "2025-09-25T12:30:07.395Z",
        "valueQuantity": {
          "value": 98,
          "unit": "%",
          "system": "http://unitsofmeasure.org",
          "code": "%"
        }
      }
    },
    {
      "resource": {
        "resourceType": "Observation",
        "id": "obs-spo2-10",
        "status": "final",
        "category": [
          {
            "coding": [
              {
                "system": "http://terminology.hl7.org/CodeSystem/observation-category",
                "code": "vital-signs"
              }
            ]
          }
        ],
        "code": {
          "coding": [
            {
              "system": "http://loinc.org",
              "code": "59408-5",
              "display": "Oxygen saturation"
            }
          ],
          "text": "SpO"
        },
        "subject": {
          "reference": "Patient/3e9e2807-7f65-444c-b7c7-88b1b308631f"
        },
        "effectiveDateTime": "2025-10-02T12:30:07.395Z",
        "valueQuantity": {
          "value": 96,
          "unit": "%",
          "system": "http://unitsofmeasure.org",
          "code": "%"
        }
      }
    },
    {
      "resource": {
        "resourceType": "Observation",
        "id": "obs-spo2-11",
        "status": "final",
        "category": [
          {
            "coding": [
              {
                "system": "http://terminology.hl7.org/CodeSystem/observation-category",
                "code": "vital-signs"
              }
            ]
          }
        ],
        "code": {
          "coding": [
            {
              "system": "http://loinc.org",
              "code": "59408-5",
              "display": "Oxygen saturation"
            }
          ],
          "text": "SpO"
        },
        "subject": {
          "reference": "Patient/3e9e2807-7f65-444c-b7c7-88b1b308631f"
        },
        "effectiveDateTime": "2025-10-09T12:30:07.395Z",
        "valueQuantity": {
          "value": 98,
          "unit": "%",
          "system": "http://unitsofmeasure.org",
          "code": "%"
        }
      }
    },
    {
      "resource": {
        "resourceType": "Observation",
        "id": "obs-spo2-12",
        "status": "final",
        "category": [
          {
            "coding": [
              {
                "system": "http://terminology.hl7.org/CodeSystem/observation-category",
                "code": "vital-signs"
              }
            ]
          }
        ],
        "code": {
          "coding": [
            {
              "system": "http://loinc.org",
              "code": "59408-5",
              "display": "Oxygen saturation"
            }
          ],
          "text": "SpO"
        },
        "subject": {
          "reference": "Patient/3e9e2807-7f65-444c-b7c7-88b1b308631f"
        },
        "effectiveDateTime": "2025-10-16T12:30:07.395Z",
        "valueQuantity": {
          "value": 98,
          "unit": "%",
          "system": "http://unitsofmeasure.org",
          "code": "%"
        }
      }
    },
    {
      "resource": {
        "resourceType": "Observation",
        "id": "obs-spo2-13",
        "status": "final",
        "category": [
          {
            "coding": [
              {
                "system": "http://terminology.hl7.org/CodeSystem/observation-category",
                "code": "vital-signs"
              }
            ]
          }
        ],
        "code": {
          "coding": [
            {
              "system": "http://loinc.org",
              "code": "59408-5",
              "display": "Oxygen saturation"
            }
          ],
          "text": "SpO"
        },
        "subject": {
          "reference": "Patient/3e9e2807-7f65-444c-b7c7-88b1b308631f"
        },
        "effectiveDateTime": "2025-10-23T12:30:07.395Z",
        "valueQuantity": {
          "value": 98,
          "unit": "%",
          "system": "http://unitsofmeasure.org",
          "code": "%"
        }
      }
    },
    {
      "resource": {
        "resourceType": "Observation",
        "id": "obs-hba1c-1",
        "status": "final",
        "category": [
          {
            "coding": [
              {
                "system": "http://terminology.hl7.org/CodeSystem/observation-category",
                "code": "laboratory"
              }
            ]
          }
        ],
        "code": {
          "coding": [
            {
              "system": "http://loinc.org",
              "code": "4548-4",
              "display": "Hemoglobin A1c"
            }
          ],
          "text": "HbA1c"
        },
        "subject": {
          "reference": "Patient/3e9e2807-7f65-444c-b7c7-88b1b308631f"
        },
        "effectiveDateTime": "2025-07-31T12:30:07.395Z",
        "valueQuantity": {
          "value": 6.6004322064327425,
          "unit": "%",
          "system": "http://unitsofmeasure.org",
          "code": "%"
        }
      }
    },
    {
      "resource": {
        "resourceType": "Observation",
        "id": "obs-hba1c-2",
        "status": "final",
        "category": [
          {
            "coding": [
              {
                "system": "http://terminology.hl7.org/CodeSystem/observation-category",
                "code": "laboratory"
              }
            ]
          }
        ],
        "code": {
          "coding": [
            {
              "system": "http://loinc.org",
              "code": "4548-4",
              "display": "Hemoglobin A1c"
            }
          ],
          "text": "HbA1c"
        },
        "subject": {
          "reference": "Patient/3e9e2807-7f65-444c-b7c7-88b1b308631f"
        },
        "effectiveDateTime": "2025-08-30T12:30:07.395Z",
        "valueQuantity": {
          "value": 6.415386006696281,
          "unit": "%",
          "system": "http://unitsofmeasure.org",
          "code": "%"
        }
      }
    },
    {
      "resource": {
        "resourceType": "Observation",
        "id": "obs-hba1c-3",
        "status": "final",
        "category": [
          {
            "coding": [
              {
                "system": "http://terminology.hl7.org/CodeSystem/observation-category",
                "code": "laboratory"
              }
            ]
          }
        ],
        "code": {
          "coding": [
            {
              "system": "http://loinc.org",
              "code": "4548-4",
              "display": "Hemoglobin A1c"
            }
          ],
          "text": "HbA1c"
        },
        "subject": {
          "reference": "Patient/3e9e2807-7f65-444c-b7c7-88b1b308631f"
        },
        "effectiveDateTime": "2025-09-29T12:30:07.395Z",
        "valueQuantity": {
          "value": 6.1878189110299,
          "unit": "%",
          "system": "http://unitsofmeasure.org",
          "code": "%"
        }
      }
    },
    {
      "resource": {
        "resourceType": "Observation",
        "id": "obs-glucose-1",
        "status": "final",
        "category": [
          {
            "coding": [
              {
                "system": "http://terminology.hl7.org/CodeSystem/observation-category",
                "code": "laboratory"
              }
            ]
          }
        ],
        "code": {
          "coding": [
            {
              "system": "http://loinc.org",
              "code": "1558-6",
              "display": "Fasting glucose"
            }
          ],
          "text": "Fasting Glucose"
        },
        "subject": {
          "reference": "Patient/3e9e2807-7f65-444c-b7c7-88b1b308631f"
        },
        "effectiveDateTime": "2025-07-31T12:30:07.395Z",
        "valueQuantity": {
          "value": 95,
          "unit": "mg/dL",
          "system": "http://unitsofmeasure.org",
          "code": "mg/dL"
        }
      }
    },
    {
      "resource": {
        "resourceType": "Observation",
        "id": "obs-glucose-2",
        "status": "final",
        "category": [
          {
            "coding": [
              {
                "system": "http://terminology.hl7.org/CodeSystem/observation-category",
                "code": "laboratory"
              }
            ]
          }
        ],
        "code": {
          "coding": [
            {
              "system": "http://loinc.org",
              "code": "1558-6",
              "display": "Fasting glucose"
            }
          ],
          "text": "Fasting Glucose"
        },
        "subject": {
          "reference": "Patient/3e9e2807-7f65-444c-b7c7-88b1b308631f"
        },
        "effectiveDateTime": "2025-08-30T12:30:07.395Z",
        "valueQuantity": {
          "value": 106,
          "unit": "mg/dL",
          "system": "http://unitsofmeasure.org",
          "code": "mg/dL"
        }
      }
    },
    {
      "resource": {
        "resourceType": "Observation",
        "id": "obs-glucose-3",
        "status": "final",
        "category": [
          {
            "coding": [
              {
                "system": "http://terminology.hl7.org/CodeSystem/observation-category",
                "code": "laboratory"
              }
            ]
          }
        ],
        "code": {
          "coding": [
            {
              "system": "http://loinc.org",
              "code": "1558-6",
              "display": "Fasting glucose"
            }
          ],
          "text": "Fasting Glucose"
        },
        "subject": {
          "reference": "Patient/3e9e2807-7f65-444c-b7c7-88b1b308631f"
        },
        "effectiveDateTime": "2025-09-29T12:30:07.395Z",
        "valueQuantity": {
          "value": 109,
          "unit": "mg/dL",
          "system": "http://unitsofmeasure.org",
          "code": "mg/dL"
        }
      }
    },
    {
      "resource": {
        "resourceType": "Observation",
        "id": "obs-ldl",
        "status": "final",
        "category": [
          {
            "coding": [
              {
                "system": "http://terminology.hl7.org/CodeSystem/observation-category",
                "code": "laboratory"
              }
            ]
          }
        ],
        "code": {
          "coding": [
            {
              "system": "http://loinc.org",
              "code": "18262-6",
              "display": "LDL Cholesterol"
            }
          ],
          "text": "LDL Cholesterol"
        },
        "subject": {
          "reference": "Patient/3e9e2807-7f65-444c-b7c7-88b1b308631f"
        },
        "effectiveDateTime": "2025-09-29T12:30:07.395Z",
        "valueQuantity": {
          "value": 97,
          "unit": "mg/dL",
          "system": "http://unitsofmeasure.org",
          "code": "mg/dL"
        }
      }
    },
    {
      "resource": {
        "resourceType": "Observation",
        "id": "obs-hdl",
        "status": "final",
        "category": [
          {
            "coding": [
              {
                "system": "http://terminology.hl7.org/CodeSystem/observation-category",
                "code": "laboratory"
              }
            ]
          }
        ],
        "code": {
          "coding": [
            {
              "system": "http://loinc.org",
              "code": "2085-9",
              "display": "HDL Cholesterol"
            }
          ],
          "text": "HDL Cholesterol"
        },
        "subject": {
          "reference": "Patient/3e9e2807-7f65-444c-b7c7-88b1b308631f"
        },
        "effectiveDateTime": "2025-09-29T12:30:07.395Z",
        "valueQuantity": {
          "value": 46,
          "unit": "mg/dL",
          "system": "http://unitsofmeasure.org",
          "code": "mg/dL"
        }
      }
    },
    {
      "resource": {
        "resourceType": "Observation",
        "id": "obs-triglycerides",
        "status": "final",
        "category": [
          {
            "coding": [
              {
                "system": "http://terminology.hl7.org/CodeSystem/observation-category",
                "code": "laboratory"
              }
            ]
          }
        ],
        "code": {
          "coding": [
            {
              "system": "http://loinc.org",
              "code": "2571-8",
              "display": "Triglycerides"
            }
          ],
          "text": "Triglycerides"
        },
        "subject": {
          "reference": "Patient/3e9e2807-7f65-444c-b7c7-88b1b308631f"
        },
        "effectiveDateTime": "2025-09-29T12:30:07.395Z",
        "valueQuantity": {
          "value": 165,
          "unit": "mg/dL",
          "system": "http://unitsofmeasure.org",
          "code": "mg/dL"
        }
      }
    },
    {
      "resource": {
        "resourceType": "Observation",
        "id": "obs-weight-1",
        "status": "final",
        "category": [
          {
            "coding": [
              {
                "system": "http://terminology.hl7.org/CodeSystem/observation-category",
                "code": "vital-signs"
              }
            ]
          }
        ],
        "code": {
          "coding": [
            {
              "system": "http://loinc.org",
              "code": "29463-7",
              "display": "Body weight"
            }
          ],
          "text": "Weight"
        },
        "subject": {
          "reference": "Patient/3e9e2807-7f65-444c-b7c7-88b1b308631f"
        },
        "effectiveDateTime": "2025-07-31T12:30:07.395Z",
        "valueQuantity": {
          "value": 77,
          "unit": "kg",
          "system": "http://unitsofmeasure.org",
          "code": "kg"
        }
      }
    },
    {
      "resource": {
        "resourceType": "Observation",
        "id": "obs-bmi-1",
        "status": "final",
        "category": [
          {
            "coding": [
              {
                "system": "http://terminology.hl7.org/CodeSystem/observation-category",
                "code": "vital-signs"
              }
            ]
          }
        ],
        "code": {
          "coding": [
            {
              "system": "http://loinc.org",
              "code": "39156-5",
              "display": "Body mass index"
            }
          ],
          "text": "BMI"
        },
        "subject": {
          "reference": "Patient/3e9e2807-7f65-444c-b7c7-88b1b308631f"
        },
        "effectiveDateTime": "2025-07-31T12:30:07.395Z",
        "valueQuantity": {
          "value": 25.1,
          "unit": "kg/m2",
          "system": "http://unitsofmeasure.org",
          "code": "kg/m2"
        }
      }
    },
    {
      "resource": {
        "resourceType": "Observation",
        "id": "obs-weight-2",
        "status": "final",
        "category": [
          {
            "coding": [
              {
                "system": "http://terminology.hl7.org/CodeSystem/observation-category",
                "code": "vital-signs"
              }
            ]
          }
        ],
        "code": {
          "coding": [
            {
              "system": "http://loinc.org",
              "code": "29463-7",
              "display": "Body weight"
            }
          ],
          "text": "Weight"
        },
        "subject": {
          "reference": "Patient/3e9e2807-7f65-444c-b7c7-88b1b308631f"
        },
        "effectiveDateTime": "2025-08-30T12:30:07.395Z",
        "valueQuantity": {
          "value": 76.1,
          "unit": "kg",
          "system": "http://unitsofmeasure.org",
          "code": "kg"
        }
      }
    },
    {
      "resource": {
        "resourceType": "Observation",
        "id": "obs-bmi-2",
        "status": "final",
        "category": [
          {
            "coding": [
              {
                "system": "http://terminology.hl7.org/CodeSystem/observation-category",
                "code": "vital-signs"
              }
            ]
          }
        ],
        "code": {
          "coding": [
            {
              "system": "http://loinc.org",
              "code": "39156-5",
              "display": "Body mass index"
            }
          ],
          "text": "BMI"
        },
        "subject": {
          "reference": "Patient/3e9e2807-7f65-444c-b7c7-88b1b308631f"
        },
        "effectiveDateTime": "2025-08-30T12:30:07.395Z",
        "valueQuantity": {
          "value": 24.8,
          "unit": "kg/m2",
          "system": "http://unitsofmeasure.org",
          "code": "kg/m2"
        }
      }
    },
    {
      "resource": {
        "resourceType": "Observation",
        "id": "obs-weight-3",
        "status": "final",
        "category": [
          {
            "coding": [
              {
                "system": "http://terminology.hl7.org/CodeSystem/observation-category",
                "code": "vital-signs"
              }
            ]
          }
        ],
        "code": {
          "coding": [
            {
              "system": "http://loinc.org",
              "code": "29463-7",
              "display": "Body weight"
            }
          ],
          "text": "Weight"
        },
        "subject": {
          "reference": "Patient/3e9e2807-7f65-444c-b7c7-88b1b308631f"
        },
        "effectiveDateTime": "2025-09-29T12:30:07.395Z",
        "valueQuantity": {
          "value": 76.7,
          "unit": "kg",
          "system": "http://unitsofmeasure.org",
          "code": "kg"
        }
      }
    },
    {
      "resource": {
        "resourceType": "Observation",
        "id": "obs-bmi-3",
        "status": "final",
        "category": [
          {
            "coding": [
              {
                "system": "http://terminology.hl7.org/CodeSystem/observation-category",
                "code": "vital-signs"
              }
            ]
          }
        ],
        "code": {
          "coding": [
            {
              "system": "http://loinc.org",
              "code": "39156-5",
              "display": "Body mass index"
            }
          ],
          "text": "BMI"
        },
        "subject": {
          "reference": "Patient/3e9e2807-7f65-444c-b7c7-88b1b308631f"
        },
        "effectiveDateTime": "2025-09-29T12:30:07.395Z",
        "valueQuantity": {
          "value": 25.1,
          "unit": "kg/m2",
          "system": "http://unitsofmeasure.org",
          "code": "kg/m2"
        }
      }
    },
    {
      "resource": {
        "resourceType": "Observation",
        "id": "obs-creatinine-1",
        "status": "final",
        "category": [
          {
            "coding": [
              {
                "system": "http://terminology.hl7.org/CodeSystem/observation-category",
                "code": "laboratory"
              }
            ]
          }
        ],
        "code": {
          "coding": [
            {
              "system": "http://loinc.org",
              "code": "2160-0",
              "display": "Creatinine"
            }
          ],
          "text": "Creatinine"
        },
        "subject": {
          "reference": "Patient/3e9e2807-7f65-444c-b7c7-88b1b308631f"
        },
        "effectiveDateTime": "2025-07-31T12:30:07.395Z",
        "valueQuantity": {
          "value": 1.0874424444691613,
          "unit": "mg/dL",
          "system": "http://unitsofmeasure.org",
          "code": "mg/dL"
        }
      }
    },
    {
      "resource": {
        "resourceType": "Observation",
        "id": "obs-egfr-1",
        "status": "final",
        "category": [
          {
            "coding": [
              {
                "system": "http://terminology.hl7.org/CodeSystem/observation-category",
                "code": "laboratory"
              }
            ]
          }
        ],
        "code": {
          "coding": [
            {
              "system": "http://loinc.org",
              "code": "33914-3",
              "display": "eGFR"
            }
          ],
          "text": "eGFR"
        },
        "subject": {
          "reference": "Patient/3e9e2807-7f65-444c-b7c7-88b1b308631f"
        },
        "effectiveDateTime": "2025-07-31T12:30:07.395Z",
        "valueQuantity": {
          "value": 86,
          "unit": "mL/min/1.73m2",
          "system": "http://unitsofmeasure.org",
          "code": "mL/min/{1.73_m2}"
        }
      }
    },
    {
      "resource": {
        "resourceType": "Observation",
        "id": "obs-creatinine-2",
        "status": "final",
        "category": [
          {
            "coding": [
              {
                "system": "http://terminology.hl7.org/CodeSystem/observation-category",
                "code": "laboratory"
              }
            ]
          }
        ],
        "code": {
          "coding": [
            {
              "system": "http://loinc.org",
              "code": "2160-0",
              "display": "Creatinine"
            }
          ],
          "text": "Creatinine"
        },
        "subject": {
          "reference": "Patient/3e9e2807-7f65-444c-b7c7-88b1b308631f"
        },
        "effectiveDateTime": "2025-08-30T12:30:07.395Z",
        "valueQuantity": {
          "value": 0.8182170320391379,
          "unit": "mg/dL",
          "system": "http://unitsofmeasure.org",
          "code": "mg/dL"
        }
      }
    },
    {
      "resource": {
        "resourceType": "Observation",
        "id": "obs-egfr-2",
        "status": "final",
        "category": [
          {
            "coding": [
              {
                "system": "http://terminology.hl7.org/CodeSystem/observation-category",
                "code": "laboratory"
              }
            ]
          }
        ],
        "code": {
          "coding": [
            {
              "system": "http://loinc.org",
              "code": "33914-3",
              "display": "eGFR"
            }
          ],
          "text": "eGFR"
        },
        "subject": {
          "reference": "Patient/3e9e2807-7f65-444c-b7c7-88b1b308631f"
        },
        "effectiveDateTime": "2025-08-30T12:30:07.395Z",
        "valueQuantity": {
          "value": 92,
          "unit": "mL/min/1.73m2",
          "system": "http://unitsofmeasure.org",
          "code": "mL/min/{1.73_m2}"
        }
      }
    },
    {
      "resource": {
        "resourceType": "Observation",
        "id": "obs-creatinine-3",
        "status": "final",
        "category": [
          {
            "coding": [
              {
                "system": "http://terminology.hl7.org/CodeSystem/observation-category",
                "code": "laboratory"
              }
            ]
          }
        ],
        "code": {
          "coding": [
            {
              "system": "http://loinc.org",
              "code": "2160-0",
              "display": "Creatinine"
            }
          ],
          "text": "Creatinine"
        },
        "subject": {
          "reference": "Patient/3e9e2807-7f65-444c-b7c7-88b1b308631f"
        },
        "effectiveDateTime": "2025-09-29T12:30:07.395Z",
        "valueQuantity": {
          "value": 1.046928227794615,
          "unit": "mg/dL",
          "system": "http://unitsofmeasure.org",
          "code": "mg/dL"
        }
      }
    },
    {
      "resource": {
        "resourceType": "Observation",
        "id": "obs-egfr-3",
        "status": "final",
        "category": [
          {
            "coding": [
              {
                "system": "http://terminology.hl7.org/CodeSystem/observation-category",
                "code": "laboratory"
              }
            ]
          }
        ],
        "code": {
          "coding": [
            {
              "system": "http://loinc.org",
              "code": "33914-3",
              "display": "eGFR"
            }
          ],
          "text": "eGFR"
        },
        "subject": {
          "reference": "Patient/3e9e2807-7f65-444c-b7c7-88b1b308631f"
        },
        "effectiveDateTime": "2025-09-29T12:30:07.395Z",
        "valueQuantity": {
          "value": 91,
          "unit": "mL/min/1.73m2",
          "system": "http://unitsofmeasure.org",
          "code": "mL/min/{1.73_m2}"
        }
      }
    },
    {
      "resource": {
        "resourceType": "DiagnosticReport",
        "id": "report-lipid-panel",
        "status": "final",
        "category": [
          {
            "coding": [
              {
                "system": "http://terminology.hl7.org/CodeSystem/v2-0074",
                "code": "LAB",
                "display": "Laboratory"
              }
            ]
          }
        ],
        "code": {
          "coding": [
            {
              "system": "http://loinc.org",
              "code": "57698-3",
              "display": "Lipid panel with direct LDL"
            }
          ],
          "text": "Lipid Panel"
        },
        "subject": {
          "reference": "Patient/3e9e2807-7f65-444c-b7c7-88b1b308631f"
        },
        "effectiveDateTime": "2025-09-29T12:30:07.395Z",
        "issued": "2025-09-30T12:30:07.395Z",
        "result": [
          {
            "reference": "Observation/obs-ldl"
          },
          {
            "reference": "Observation/obs-hdl"
          },
          {
            "reference": "Observation/obs-triglycerides"
          }
        ],
        "conclusion": "Lipid levels within acceptable range for patient on statin therapy."
      }
    },
    {
      "resource": {
        "resourceType": "DiagnosticReport",
        "id": "report-diabetes-panel",
        "status": "final",
        "category": [
          {
            "coding": [
              {
                "system": "http://terminology.hl7.org/CodeSystem/v2-0074",
                "code": "LAB"
              }
            ]
          }
        ],
        "code": {
          "coding": [
            {
              "system": "http://loinc.org",
              "code": "24331-1",
              "display": "Lipid panel"
            }
          ],
          "text": "Diabetes Management Panel"
        },
        "subject": {
          "reference": "Patient/3e9e2807-7f65-444c-b7c7-88b1b308631f"
        },
        "effectiveDateTime": "2025-09-29T12:30:07.395Z",
        "issued": "2025-09-30T12:30:07.395Z",
        "result": [
          {
            "reference": "Observation/obs-hba1c-3"
          },
          {
            "reference": "Observation/obs-glucose-3"
          }
        ],
        "conclusion": "HbA1c shows good glycemic control. Continue current diabetes management plan."
      }
    },
    {
      "resource": {
        "resourceType": "DiagnosticReport",
        "id": "report-metabolic",
        "status": "final",
        "category": [
          {
            "coding": [
              {
                "system": "http://terminology.hl7.org/CodeSystem/v2-0074",
                "code": "LAB"
              }
            ]
          }
        ],
        "code": {
          "coding": [
            {
              "system": "http://loinc.org",
              "code": "24323-8",
              "display": "Comprehensive metabolic panel"
            }
          ],
          "text": "Metabolic Panel"
        },
        "subject": {
          "reference": "Patient/3e9e2807-7f65-444c-b7c7-88b1b308631f"
        },
        "effectiveDateTime": "2025-08-30T12:30:07.395Z",
        "issued": "2025-08-31T12:30:07.395Z",
        "result": [
          {
            "reference": "Observation/obs-creatinine-2"
          },
          {
            "reference": "Observation/obs-egfr-2"
          },
          {
            "reference": "Observation/obs-glucose-2"
          }
        ],
        "conclusion": "Kidney function within normal limits. Electrolytes balanced."
      }
    },
    {
      "resource": {
        "resourceType": "Immunization",
        "id": "imm-flu",
        "status": "completed",
        "vaccineCode": {
          "coding": [
            {
              "system": "http://hl7.org/fhir/sid/cvx",
              "code": "141",
              "display": "Influenza, seasonal, injectable"
            }
          ],
          "text": "Influenza Vaccine"
        },
        "patient": {
          "reference": "Patient/3e9e2807-7f65-444c-b7c7-88b1b308631f"
        },
        "occurrenceDateTime": "2025-08-10T12:30:07.395Z",
        "primarySource": true,
        "performer": [
          {
            "actor": {
              "reference": "Practitioner/prac-jones"
            }
          }
        ]
      }
    },
    {
      "resource": {
        "resourceType": "Immunization",
        "id": "imm-covid",
        "status": "completed",
        "vaccineCode": {
          "coding": [
            {
              "system": "http://hl7.org/fhir/sid/cvx",
              "code": "213",
              "display": "COVID-19 vaccine"
            }
          ],
          "text": "COVID-19 Booster"
        },
        "patient": {
          "reference": "Patient/3e9e2807-7f65-444c-b7c7-88b1b308631f"
        },
        "occurrenceDateTime": "2025-09-14T12:30:07.395Z",
        "primarySource": true,
        "performer": [
          {
            "actor": {
              "reference": "Practitioner/prac-jones"
            }
          }
        ]
      }
    },
    {
      "resource": {
        "resourceType": "AllergyIntolerance",
        "id": "allergy-penicillin",
        "clinicalStatus": {
          "coding": [
            {
              "system": "http://terminology.hl7.org/CodeSystem/allergyintolerance-clinical",
              "code": "active"
            }
          ]
        },
        "verificationStatus": {
          "coding": [
            {
              "system": "http://terminology.hl7.org/CodeSystem/allergyintolerance-verification",
              "code": "confirmed"
            }
          ]
        },
        "type": "allergy",
        "category": [
          "medication"
        ],
        "criticality": "high",
        "code": {
          "coding": [
            {
              "system": "http://www.nlm.nih.gov/research/umls/rxnorm",
              "code": "7980",
              "display": "Penicillin"
            }
          ],
          "text": "Penicillin"
        },
        "patient": {
          "reference": "Patient/3e9e2807-7f65-444c-b7c7-88b1b308631f"
        },
        "onsetDateTime": "2005-11-03T12:30:07.395Z",
        "reaction": [
          {
            "manifestation": [
              {
                "coding": [
                  {
                    "system": "http://snomed.info/sct",
                    "code": "271807003",
                    "display": "Rash"
                  }
                ],
                "text": "Skin rash"
              }
            ],
            "severity": "moderate"
          }
        ]
      }
    },
    {
      "resource": {
        "resourceType": "AllergyIntolerance",
        "id": "allergy-pollen",
        "clinicalStatus": {
          "coding": [
            {
              "system": "http://terminology.hl7.org/CodeSystem/allergyintolerance-clinical",
              "code": "active"
            }
          ]
        },
        "verificationStatus": {
          "coding": [
            {
              "system": "http://terminology.hl7.org/CodeSystem/allergyintolerance-verification",
              "code": "confirmed"
            }
          ]
        },
        "type": "allergy",
        "category": [
          "environment"
        ],
        "criticality": "low",
        "code": {
          "coding": [
            {
              "system": "http://snomed.info/sct",
              "code": "256277009",
              "display": "Grass pollen"
            }
          ],
          "text": "Grass Pollen"
        },
        "patient": {
          "reference": "Patient/3e9e2807-7f65-444c-b7c7-88b1b308631f"
        },
        "onsetDateTime": "2010-11-02T12:30:07.395Z",
        "reaction": [
          {
            "manifestation": [
              {
                "coding": [
                  {
                    "system": "http://snomed.info/sct",
                    "code": "267036007",
                    "display": "Sneezing"
                  }
                ],
                "text": "Sneezing and nasal congestion"
              }
            ],
            "severity": "mild"
          }
        ]
      }
    },
    {
      "resource": {
        "resourceType": "CarePlan",
        "id": "careplan-diabetes",
        "status": "active",
        "intent": "plan",
        "title": "Diabetes Management Plan",
        "description": "Comprehensive diabetes and hypertension management plan",
        "subject": {
          "reference": "Patient/3e9e2807-7f65-444c-b7c7-88b1b308631f"
        },
        "period": {
          "start": "2025-05-02T12:30:07.395Z"
        },
        "category": [
          {
            "coding": [
              {
                "system": "http://snomed.info/sct",
                "code": "698360004",
                "display": "Diabetes self management plan"
              }
            ],
            "text": "Diabetes Management"
          }
        ],
        "activity": [
          {
            "detail": {
              "code": {
                "coding": [
                  {
                    "system": "http://snomed.info/sct",
                    "code": "229065009",
                    "display": "Exercise therapy"
                  }
                ],
                "text": "Regular physical activity"
              },
              "status": "in-progress",
              "description": "30 minutes of moderate exercise, 5 days per week"
            }
          },
          {
            "detail": {
              "code": {
                "coding": [
                  {
                    "system": "http://snomed.info/sct",
                    "code": "182777000",
                    "display": "Dietary advice"
                  }
                ],
                "text": "Dietary management"
              },
              "status": "in-progress",
              "description": "Low-sugar, balanced diet with carbohydrate monitoring"
            }
          },
          {
            "detail": {
              "code": {
                "coding": [
                  {
                    "system": "http://snomed.info/sct",
                    "code": "33747003",
                    "display": "Blood glucose monitoring"
                  }
                ],
                "text": "Blood glucose monitoring"
              },
              "status": "in-progress",
              "description": "Monitor blood glucose levels daily before breakfast"
            }
          }
        ],
        "goal": [
          {
            "reference": "Goal/goal-hba1c"
          },
          {
            "reference": "Goal/goal-bp"
          }
        ]
      }
    }
  ]
}